Frequency (Hz),Level (dB)
43.066406,-39.479736
86.132812,-27.888189
129.199219,-16.426516
172.265625,-17.609245
215.332031,-32.451134
258.398438,-19.820942
301.464844,-16.33704
344.53125,-24.871559
387.597656,-33.402489
430.664062,-25.598688
473.730469,-28.920452
516.796875,-40.889275
559.863281,-40.547966
602.929688,-40.997082
645.996094,-44.600998
689.0625,-40.505386
732.128906,-35.912792
775.195312,-41.40591
818.261719,-50.39093
861.328125,-45.824863
904.394531,-45.005966
947.460938,-47.284801
990.527344,-45.353973
1033.59375,-45.01873
1076.660156,-47.207272
1119.726562,-44.028019
1162.792969,-38.724365
1205.859375,-41.180126
1248.925781,-46.066936
1291.992188,-41.546387
1335.058594,-40.114792
1378.125,-44.718601
1421.191406,-45.011753
1464.257812,-45.223797
1507.324219,-44.733562
1550.390625,-43.226971
1593.457031,-43.176353
1636.523438,-44.463425
1679.589844,-44.390102
1722.65625,-43.991711
1765.722656,-43.918407
1808.789062,-44.560196
1851.855469,-46.442814
1894.921875,-46.949951
1937.988281,-47.408363
1981.054688,-49.25444
2024.121094,-48.634548
2067.1875,-47.964832
2110.253906,-47.203705
2153.320312,-47.930679
2196.386719,-46.144398
2239.453125,-46.185081
2282.519531,-47.069458
2325.585938,-47.062527
2368.652344,-46.91124
2411.71875,-50.419125
2454.785156,-50.598316
2497.851562,-50.140713
2540.917969,-49.523018
2583.984375,-47.851425
2627.050781,-47.69857
2670.117188,-47.159256
2713.183594,-45.202915
2756.25,-45.10989
2799.316406,-46.014797
2842.382812,-46.545185
2885.449219,-47.33633
2928.515625,-47.924873
2971.582031,-50.176025
3014.648438,-51.056438
3057.714844,-50.508194
3100.78125,-49.854706
3143.847656,-48.295135
3186.914062,-49.133858
3229.980469,-49.576141
3273.046875,-49.388248
3316.113281,-50.168957
3359.179688,-50.906219
3402.246094,-51.191307
3445.3125,-50.546032
3488.378906,-51.843651
3531.445312,-51.462715
3574.511719,-51.808117
3617.578125,-50.816269
3660.644531,-51.436481
3703.710938,-53.025146
3746.777344,-53.92329
3789.84375,-54.390491
3832.910156,-53.879898
3875.976562,-52.876175
3919.042969,-53.72953
3962.109375,-53.180878
4005.175781,-54.022533
4048.242188,-55.059525
4091.308594,-54.640217
4134.375,-54.34848
4177.441406,-54.179611
4220.507812,-52.958447
4263.574219,-53.013023
4306.640625,-53.078899
4349.707031,-53.621258
4392.773438,-53.880131
4435.839844,-53.733345
4478.90625,-54.531742
4521.972656,-56.215088
4565.039062,-57.326702
4608.105469,-56.99115
4651.171875,-55.587685
4694.238281,-56.654091
4737.304688,-58.871223
4780.371094,-59.718216
4823.4375,-59.30711
4866.503906,-58.335587
4909.570312,-57.416435
4952.636719,-56.025261
4995.703125,-56.042946
5038.769531,-57.182667
5081.835938,-57.163982
5124.902344,-57.719009
5167.96875,-58.221222
5211.035156,-59.104313
5254.101562,-57.599377
5297.167969,-57.474659
5340.234375,-58.725201
5383.300781,-58.414932
5426.367188,-59.828335
5469.433594,-58.453495
5512.5,-58.07029
5555.566406,-60.516747
5598.632812,-60.519733
5641.699219,-61.063862
5684.765625,-60.532402
5727.832031,-61.077793
5770.898438,-58.336304
5813.964844,-58.201546
5857.03125,-59.158886
5900.097656,-59.418377
5943.164062,-56.711685
5986.230469,-56.902245
6029.296875,-58.780613
6072.363281,-58.549568
6115.429688,-59.335094
6158.496094,-62.068211
6201.5625,-61.593384
6244.628906,-60.471279
6287.695312,-60.224529
6330.761719,-59.083145
6373.828125,-61.096519
6416.894531,-61.786282
6459.960938,-63.205978
6503.027344,-64.251129
6546.09375,-63.953335
6589.160156,-63.650097
6632.226562,-61.562065
6675.292969,-62.056057
6718.359375,-63.573112
6761.425781,-65.41156
6804.492188,-66.334053
6847.558594,-63.07066
6890.625,-59.659229
6933.691406,-61.465832
6976.757812,-61.042782
7019.824219,-61.002682
7062.890625,-63.444164
7105.957031,-64.793816
7149.023438,-64.328117
7192.089844,-65.093773
7235.15625,-63.364304
7278.222656,-61.502708
7321.289062,-63.101917
7364.355469,-62.004234
7407.421875,-62.11726
7450.488281,-60.296852
7493.554688,-61.165031
7536.621094,-65.195992
7579.6875,-66.493805
7622.753906,-67.855217
7665.820312,-68.321785
7708.886719,-66.449585
7751.953125,-66.3517
7795.019531,-64.710762
7838.085938,-62.916138
7881.152344,-65.959145
7924.21875,-64.661018
7967.285156,-64.098595
8010.351562,-63.510063
8053.417969,-63.128193
8096.484375,-63.959053
8139.550781,-63.714748
8182.617188,-65.786194
8225.683594,-68.529045
8268.75,-66.410606
8311.816406,-68.552452
8354.882812,-69.099106
8397.949219,-69.562378
8441.015625,-68.520378
8484.082031,-68.761719
8527.148438,-68.859879
8570.214844,-70.291214
8613.28125,-69.524078
8656.347656,-68.192673
8699.414062,-69.350449
8742.480469,-70.287926
8785.546875,-71.081375
8828.613281,-71.557869
8871.679688,-72.24894
8914.746094,-73.359825
8957.8125,-72.715614
9000.878906,-73.345329
9043.945312,-71.930359
9087.011719,-71.240837
9130.078125,-71.596542
9173.144531,-70.6614
9216.210938,-71.36599
9259.277344,-73.043137
9302.34375,-74.171326
9345.410156,-73.32373
9388.476562,-72.86721
9431.542969,-72.4161
9474.609375,-72.542755
9517.675781,-72.326279
9560.742188,-72.191505
9603.808594,-73.128426
9646.875,-73.131516
9689.941406,-73.134102
9733.007812,-72.495331
9776.074219,-72.490097
9819.140625,-74.087234
9862.207031,-74.426826
9905.273438,-72.808952
9948.339844,-72.053162
9991.40625,-71.511482
10034.47266,-71.662987
10077.53906,-71.475731
10120.60547,-70.054237
10163.67188,-71.19548
10206.73828,-72.058632
10249.80469,-71.747108
10292.87109,-73.880737
10335.9375,-74.01947
10379.00391,-73.258972
10422.07031,-74.667007
10465.13672,-74.407707
10508.20313,-74.523186
10551.26953,-74.505203
10594.33594,-75.826576
10637.40234,-73.990578
10680.46875,-73.558701
10723.53516,-75.228142
10766.60156,-74.997459
10809.66797,-73.572578
10852.73438,-72.12558
10895.80078,-72.59893
10938.86719,-73.888077
10981.93359,-75.061951
11025,-74.874901
11068.06641,-75.023277
11111.13281,-76.024818
11154.19922,-74.9674
11197.26563,-75.401039
11240.33203,-75.102081
11283.39844,-74.837166
11326.46484,-76.027321
11369.53125,-77.74025
11412.59766,-77.361008
11455.66406,-75.960915
11498.73047,-76.157928
11541.79688,-75.872528
11584.86328,-75.802673
11627.92969,-75.816948
11670.99609,-75.749413
11714.0625,-76.744858
11757.12891,-76.14595
11800.19531,-76.175369
11843.26172,-75.691673
11886.32813,-76.285828
11929.39453,-76.175667
11972.46094,-76.293663
12015.52734,-76.694511
12058.59375,-76.396309
12101.66016,-76.246964
12144.72656,-76.244553
12187.79297,-76.81794
12230.85938,-76.401352
12273.92578,-76.106613
12316.99219,-76.127502
12360.05859,-76.492592
12403.125,-76.808823
12446.19141,-75.657448
12489.25781,-75.722137
12532.32422,-75.642105
12575.39063,-76.055542
12618.45703,-75.797752
12661.52344,-75.055534
12704.58984,-75.174271
12747.65625,-76.179947
12790.72266,-75.552742
12833.78906,-75.344513
12876.85547,-76.073578
12919.92188,-75.410568
12962.98828,-75.320213
13006.05469,-75.092712
13049.12109,-75.270493
13092.1875,-76.022568
13135.25391,-76.405067
13178.32031,-75.781425
13221.38672,-75.795494
13264.45313,-76.061096
13307.51953,-76.173531
13350.58594,-76.141022
13393.65234,-75.790497
13436.71875,-74.851776
13479.78516,-75.026321
13522.85156,-75.771835
13565.91797,-75.494362
13608.98438,-75.821068
13652.05078,-74.876839
13695.11719,-74.532318
13738.18359,-75.402084
13781.25,-75.766884
13824.31641,-75.40329
13867.38281,-75.317169
13910.44922,-75.041733
13953.51563,-75.674515
13996.58203,-74.848083
14039.64844,-74.060959
14082.71484,-74.285843
14125.78125,-74.629524
14168.84766,-74.384033
14211.91406,-74.024826
14254.98047,-75.318726
14298.04688,-75.364731
14341.11328,-74.435501
14384.17969,-74.318863
14427.24609,-74.585953
14470.3125,-73.594925
14513.37891,-74.571762
14556.44531,-73.707161
14599.51172,-72.947678
14642.57813,-73.497803
14685.64453,-72.801567
14728.71094,-72.689819
14771.77734,-72.969597
14814.84375,-71.907356
14857.91016,-73.301193
14900.97656,-73.264267
14944.04297,-72.643204
14987.10938,-72.136726
15030.17578,-72.7229
15073.24219,-73.723724
15116.30859,-73.6269
15159.375,-73.253258
15202.44141,-72.395302
15245.50781,-72.690865
15288.57422,-73.604675
15331.64063,-73.314056
15374.70703,-71.903809
15417.77344,-72.43425
15460.83984,-72.021515
15503.90625,-71.150848
15546.97266,-71.632507
15590.03906,-71.704277
15633.10547,-70.970497
15676.17188,-70.565857
15719.23828,-71.799316
15762.30469,-71.841759
15805.37109,-71.19751
15848.4375,-71.986977
15891.50391,-72.411484
15934.57031,-71.037125
15977.63672,-71.667015
16020.70313,-71.689056
16063.76953,-72.051491
16106.83594,-71.880844
16149.90234,-71.169617
16192.96875,-70.470726
16236.03516,-70.868874
16279.10156,-71.012962
16322.16797,-71.653694
16365.23438,-71.043488
16408.30078,-69.996239
16451.36719,-69.615974
16494.43359,-69.910728
16537.5,-70.108376
16580.56641,-69.943245
16623.63281,-71.12796
16666.69922,-70.997421
16709.76563,-71.386139
16752.83203,-71.614838
16795.89844,-71.104637
16838.96484,-72.242538
16882.03125,-72.741188
16925.09766,-72.718956
16968.16406,-72.195602
17011.23047,-71.860085
17054.29688,-72.727295
17097.36328,-72.546906
17140.42969,-73.416382
17183.49609,-73.782112
17226.5625,-73.736244
17269.62891,-73.677139
17312.69531,-73.868958
17355.76172,-74.401726
17398.82813,-74.77449
17441.89453,-75.076454
17484.96094,-74.868088
17528.02734,-74.696388
17571.09375,-74.646988
17614.16016,-75.61264
17657.22656,-74.684471
17700.29297,-74.634773
17743.35938,-75.027931
17786.42578,-75.319038
17829.49219,-75.577545
17872.55859,-76.193726
17915.625,-75.799088
17958.69141,-75.644943
18001.75781,-76.219742
18044.82422,-77.39167
18087.89063,-75.967918
18130.95703,-76.328857
18174.02344,-75.871231
18217.08984,-75.574539
18260.15625,-75.606178
18303.22266,-75.83828
18346.28906,-76.020004
18389.35547,-76.779495
18432.42188,-76.238716
18475.48828,-75.949646
18518.55469,-76.240753
18561.62109,-75.847343
18604.6875,-75.351273
18647.75391,-75.519051
18690.82031,-75.734131
18733.88672,-76.032127
18776.95313,-76.486328
18820.01953,-76.331459
18863.08594,-75.647812
18906.15234,-76.151962
18949.21875,-76.762367
18992.28516,-76.644409
19035.35156,-77.40744
19078.41797,-76.566788
19121.48438,-76.176315
19164.55078,-76.604027
19207.61719,-75.88279
19250.68359,-76.271019
19293.75,-76.645195
19336.81641,-76.2435
19379.88281,-76.410797
19422.94922,-76.955353
19466.01563,-76.562187
19509.08203,-76.627983
19552.14844,-76.282845
19595.21484,-76.106636
19638.28125,-76.72226
19681.34766,-76.911362
19724.41406,-76.661606
19767.48047,-76.467804
19810.54688,-76.896019
19853.61328,-76.373009
19896.67969,-76.2369
19939.74609,-75.75502
19982.8125,-76.304802
20025.87891,-76.687721
20068.94531,-76.429619
20112.01172,-77.149452
20155.07813,-77.463303
20198.14453,-76.862885
20241.21094,-76.368759
20284.27734,-76.611595
20327.34375,-76.436569
20370.41016,-77.091637
20413.47656,-76.8573
20456.54297,-77.326019
20499.60938,-76.823914
20542.67578,-76.296097
20585.74219,-76.817276
20628.80859,-77.826012
20671.875,-78.417847
20714.94141,-78.0849
20758.00781,-78.537651
20801.07422,-79.496964
20844.14063,-78.567421
20887.20703,-78.571899
20930.27344,-79.528801
20973.33984,-79.591911
21016.40625,-80.136726
21059.47266,-80.141563
21102.53906,-80.218636
21145.60547,-80.224419
21188.67188,-80.73867
21231.73828,-81.538597
21274.80469,-81.524582
21317.87109,-81.909416
21360.9375,-81.999428
21404.00391,-82.603607
21447.07031,-83.575203
21490.13672,-83.409859
21533.20313,-84.023544
21576.26953,-85.390846
21619.33594,-85.308151
21662.40234,-84.832512
21705.46875,-80.638474
21748.53516,-80.556412
21791.60156,-86.401573
21834.66797,-88.364334
21877.73438,-87.471741
21920.80078,-87.430664
21963.86719,-87.78006
22006.93359,-88.648018
